Folder: Fitting-WebApp

File: GMTE-44_Uncomp_IP_Cell 9_25deg_C01.mpt
EC-Lab ASCII FILE
Nb header lines : 63

Potentio Electrochemical Impedance Spectroscopy

Run on channel : 1 (SN 51265)
User :
CE vs. WE compliance from -10 V to 10 V
Electrode connection : standard
Potential control : Ewe
Ewe ctrl range : min = -10.00 V, max = 10.00 V
Safety Limits :
	Do not start on E overload
Acquisition started on : 01/10/2024 22:43:12.135
Loaded Setting File :  D:\Manju\2024_01_05\GMTE-38_IP_Uncomp_1.5_SD_1_GF_AG_PVDF_94_6_500mM_TBATFSI_EC_EMC_3_7_5608us_10mV_200kHz_1mHz_Cell 1_25deg_C01.mpr
Saved on :
	File : GMTE-44_IP_Uncomp_1.5_SD_1_GF_AG_PVDF_94_6_500mM_TBAPF6_EC_EMC_3_7_5167us_10mV_200kHz_0.1mHz_Cell 9_25deg_C01.mpr
	Directory : D:\Manju\2024_01_08\
	Host : 192.168.0.10
Device : VSP-3e (SN .003361)
Address : 192.168.0.1
EC-Lab for windows v11.52 (software)
Internet server v11.52 (firmware)
Command interpretor v11.50 (firmware)
Electrode material :
Initial state :
Electrolyte :
Comments :
Electrode surface area : 0.001 cm²
Characteristic mass : 0.001 g
Equivalent Weight : 0.000 g/eq.
Density : 0.000 g/cm3
Volume (V) : 0.001 cm³
Cycle Definition : Charge/Discharge alternance
Mode                Single sine
E (V)               0.0000
vs.                 Eoc
tE (h:m:s)          0:00:0.0000
record              0
dI                  0.000
unit dI             mA
dt (s)              0.000
fi                  200.000
unit fi             kHz
ff                  1.000
unit ff             mHz
Nd                  10
Points              per decade
spacing             Logarithmic
Va (mV)             10.0
pw                  3.00
Na                  5
corr                0
E range min (V)     -10.000
E range max (V)     10.000
I Range             Auto
Bandwidth           5
nc cycles           0
goto Ns'            0
nr cycles           0
inc. cycle          0

freq/Hz	Re(Z)/Ohm	-Im(Z)/Ohm	|Z|/Ohm	Phase(Z)/deg	time/s	<Ewe>/V	<I>/mA	Cs/µF	Cp/µF	cycle number	I Range	|Ewe|/V	|I|/A	Ns	(Q-Qo)/mA.h	Re(Y)/Ohm-1	Im(Y)/Ohm-1	|Y|/Ohm-1	Phase(Y)/deg	Re(C)/nF	Im(C)/nF	|C|/nF	Phase(C)/deg	Re(M)	Im(M)	|M|	Phase(M)/deg	Re(Permittivity)	Im(Permittivity)	|Permittivity|	Phase(Permittivity)/deg	Re(Resistivity)/Ohm.cm	Im(Resistivity)/Ohm.cm	|Resistivity|/Ohm.cm	Phase(Resistivity)/deg	Re(Conductivity)/mS/cm	Im(Conductivity)/mS/cm	|Conductivity|/mS/cm	Phase(Conductivity)/deg	Tan(Delta)	Loss Angle(Delta)/deg	dq/mA.h
199998	4.6532	1.91538	5.03199	-22.3734	01/10/2024 22:43:15.5115	-0.00330503	-0.00512776	0.415469	0.0601963	1	10	0.00940487	0.00186902	0	2.88134e-07	0.183769	0.0756441	0.198728	22.3734	60.1963	146.24	158.144	-67.6266	0.0000000E+000	0.0000000E+000	0.0000000E+000	67.6266	0.0000000E+000	0.0000000E+000	0.0000000E+000	-67.6266	0.0000000E+000	0.0000000E+000	0.0000000E+000	-22.3734	0.0000000E+000	0.0000000E+000	0.0000000E+000	22.3734	2.42938	67.6266	2.88134e-07
79609.6	5.60208	3.66546	6.69469	-33.1969	01/10/2024 22:43:20.0445	-0.00334206	-0.00345538	0.545414	0.163502	1	10	0.0107256	0.00160211	0	6.65441e-06	0.124994	0.0817839	0.149372	33.1969	163.502	249.887	298.624	-56.8031	0.0000000E+000	0.0000000E+000	0.0000000E+000	56.8031	0.0000000E+000	0.0000000E+000	0.0000000E+000	-56.8031	0.0000000E+000	0.0000000E+000	0.0000000E+000	-33.1969	0.0000000E+000	0.0000000E+000	0.0000000E+000	33.1969	1.52834	56.8031	3.4382e-06
31686.1	7.14427	6.98422	9.99099	-44.351	01/10/2024 22:43:24.5765	-0.00334116	-0.00356714	0.719173	0.351441	1	10	0.0101869	0.00101961	0	5.82388e-06	0.0715716	0.0699682	0.10009	44.351	351.441	359.494	502.739	-45.649	0.0000000E+000	0.0000000E+000	0.0000000E+000	45.649	0.0000000E+000	0.0000000E+000	0.0000000E+000	-45.649	0.0000000E+000	0.0000000E+000	0.0000000E+000	-44.351	0.0000000E+000	0.0000000E+000	0.0000000E+000	44.351	1.02292	45.649	2.0315e-07
12618.8	9.91406	14.0038	17.158	-54.7033	01/10/2024 22:43:28.5655	-0.00334575	-0.0042078	0.90065	0.599954	1	10	0.010009	0.000583342	0	5.49621e-06	0.0336759	0.047568	0.0582819	54.7033	599.954	424.739	735.084	-35.2967	0.0000000E+000	0.0000000E+000	0.0000000E+000	35.2967	0.0000000E+000	0.0000000E+000	0.0000000E+000	-35.2967	0.0000000E+000	0.0000000E+000	0.0000000E+000	-54.7033	0.0000000E+000	0.0000000E+000	0.0000000E+000	54.7033	0.707953	35.2967	-1.82272e-07
5021.61	17.338	28.5034	33.3624	-58.6887	01/10/2024 22:43:33.8327	-0.00315584	0.0107506	1.11194	0.811632	1	10	0.00926703	0.000277769	0	1.56083e-05	0.0155771	0.0256084	0.0299739	58.6887	811.632	493.7	949.993	-31.3113	0.0000000E+000	0.0000000E+000	0.0000000E+000	31.3113	0.0000000E+000	0.0000000E+000	0.0000000E+000	-31.3113	0.0000000E+000	0.0000000E+000	0.0000000E+000	-58.6887	0.0000000E+000	0.0000000E+000	0.0000000E+000	58.6887	0.608281	31.3113	5.07717e-06
1998.08	38.2368	51.2687	63.9573	-53.284	01/10/2024 22:43:40.8980	-0.00322606	0.000312142	1.55366	0.998342	1	11	0.00945987	0.000147909	0	1.84957e-05	0.00934764	0.0125335	0.0156354	53.284	998.342	744.575	1245.42	-36.716	0.0000000E+000	0.0000000E+000	0.0000000E+000	36.716	0.0000000E+000	0.0000000E+000	0.0000000E+000	-36.716	0.0000000E+000	0.0000000E+000	0.0000000E+000	-53.284	0.0000000E+000	0.0000000E+000	0.0000000E+000	53.284	0.745812	36.716	2.7061e-07
795.254	77.0664	73.2003	106.29	-43.5262	01/10/2024 22:43:47.6987	-0.00322365	0.000298169	2.73402	1.29671	1	11	0.00914047	8.59957e-05	0	1.92363e-05	0.00682153	0.00647932	0.00940824	43.5262	1296.71	1365.2	1882.88	-46.4738	0.0000000E+000	0.0000000E+000	0.0000000E+000	46.4738	0.0000000E+000	0.0000000E+000	0.0000000E+000	-46.4738	0.0000000E+000	0.0000000E+000	0.0000000E+000	-43.5262	0.0000000E+000	0.0000000E+000	0.0000000E+000	43.5262	1.05282	46.4738	2.58625e-07
316.723	124.867	89.4804	153.618	-35.6256	01/10/2024 22:43:54.4897	-0.0032343	0.000256999	5.61581	1.90539	1	11	0.00907509	5.90757e-05	0	1.99243e-05	0.00529131	0.00379178	0.00650965	35.6256	1905.39	2658.91	3271.13	-54.3744	0.0000000E+000	0.0000000E+000	0.0000000E+000	54.3744	0.0000000E+000	0.0000000E+000	0.0000000E+000	-54.3744	0.0000000E+000	0.0000000E+000	0.0000000E+000	-35.6256	0.0000000E+000	0.0000000E+000	0.0000000E+000	35.6256	1.39547	54.3744	1.43942e-07
126.008	175.916	110.608	207.799	-32.1599	01/10/2024 22:44:01.2842	-0.00323454	0.00016516	11.4192	3.23535	1	11	0.00906276	4.36131e-05	0	2.06618e-05	0.00407397	0.00256153	0.00481234	32.1599	3235.35	5145.64	6078.25	-57.8401	0.0000000E+000	0.0000000E+000	0.0000000E+000	57.8401	0.0000000E+000	0.0000000E+000	0.0000000E+000	-57.8401	0.0000000E+000	0.0000000E+000	0.0000000E+000	-32.1599	0.0000000E+000	0.0000000E+000	0.0000000E+000	32.1599	1.59044	57.8401	1.88413e-07
50.2089	237.637	152.912	282.584	-32.7601	01/10/2024 22:44:08.3879	-0.00321926	-4.6962e-05	20.7299	6.06999	1	12	0.00907042	3.20982e-05	0	2.05782e-05	0.00297591	0.00191491	0.00353877	32.7601	6069.99	9433.21	11217.4	-57.2399	0.0000000E+000	0.0000000E+000	0.0000000E+000	57.2399	0.0000000E+000	0.0000000E+000	0.0000000E+000	-57.2399	0.0000000E+000	0.0000000E+000	0.0000000E+000	-32.7601	0.0000000E+000	0.0000000E+000	0.0000000E+000	32.7601	1.55407	57.2399	-8.0005e-08
19.9808	325.211	225.29	395.624	-34.7123	01/10/2024 22:44:15.1080	-0.00320878	-7.24122e-05	35.3561	11.4653	1	12	0.009061	2.29031e-05	0	2.04868e-05	0.00207779	0.00143939	0.00252765	34.7123	11465.3	16550.4	20133.7	-55.2877	0.0000000E+000	0.0000000E+000	0.0000000E+000	55.2877	0.0000000E+000	0.0000000E+000	0.0000000E+000	-55.2877	0.0000000E+000	0.0000000E+000	0.0000000E+000	-34.7123	0.0000000E+000	0.0000000E+000	0.0000000E+000	34.7123	1.44352	55.2877	-2.69574e-08
7.9557	457.719	342.471	571.658	-36.8043	01/10/2024 22:44:22.5332	-0.00321418	-4.82759e-05	58.4141	20.9649	1	12	0.00905907	1.5847e-05	0	2.02653e-05	0.00140064	0.00104798	0.0017493	36.8043	20964.9	28020	34994.9	-53.1957	0.0000000E+000	0.0000000E+000	0.0000000E+000	53.1957	0.0000000E+000	0.0000000E+000	0.0000000E+000	-53.1957	0.0000000E+000	0.0000000E+000	0.0000000E+000	-36.8043	0.0000000E+000	0.0000000E+000	0.0000000E+000	36.8043	1.33652	53.1957	-1.29631e-07
3.16552	658.642	524.783	842.144	-38.5466	01/10/2024 22:44:30.6968	-0.00321441	-1.11382e-05	95.8066	37.2034	1	13	0.00906154	1.07601e-05	0	2.02592e-05	0.000928703	0.000739958	0.00118745	38.5466	37203.4	46693	59702	-51.4534	0.0000000E+000	0.0000000E+000	0.0000000E+000	51.4534	0.0000000E+000	0.0000000E+000	0.0000000E+000	-51.4534	0.0000000E+000	0.0000000E+000	0.0000000E+000	-38.5466	0.0000000E+000	0.0000000E+000	0.0000000E+000	38.5466	1.25508	51.4534	3.23364e-08
1.25967	961.173	817.391	1261.74	-40.3782	01/10/2024 22:44:49.6270	-0.00319346	4.12529e-06	154.572	64.8715	1	13	0.00906053	7.181e-06	0	2.00917e-05	0.000603759	0.000513443	0.000792558	40.3782	64871.5	76282.6	100137	-49.6218	0.0000000E+000	0.0000000E+000	0.0000000E+000	49.6218	0.0000000E+000	0.0000000E+000	0.0000000E+000	-49.6218	0.0000000E+000	0.0000000E+000	0.0000000E+000	-40.3782	0.0000000E+000	0.0000000E+000	0.0000000E+000	40.3782	1.1759	49.6218	-1.1431e-07
0.501187	1428.24	1297.32	1929.48	-42.25	01/10/2024 22:45:38.7222	-0.00319658	3.16293e-06	244.778	110.659	1	14	0.00906452	4.6979e-06	0	2.0207e-05	0.000383635	0.00034847	0.000518273	42.25	110659	121826	164581	-47.75	0.0000000E+000	0.0000000E+000	0.0000000E+000	47.75	0.0000000E+000	0.0000000E+000	0.0000000E+000	-47.75	0.0000000E+000	0.0000000E+000	0.0000000E+000	-42.25	0.0000000E+000	0.0000000E+000	0.0000000E+000	42.25	1.10091	47.75	1.04861e-07
0.199808	2167.58	2089.4	3010.65	-43.9478	01/10/2024 22:47:36.3535	-0.00320862	6.11569e-07	381.229	183.615	1	14	0.00905971	3.00922e-06	0	2.06016e-05	0.000239142	0.000230516	0.000332155	43.9478	183615	190486	264574	-46.0522	0.0000000E+000	0.0000000E+000	0.0000000E+000	46.0522	0.0000000E+000	0.0000000E+000	0.0000000E+000	-46.0522	0.0000000E+000	0.0000000E+000	0.0000000E+000	-43.9478	0.0000000E+000	0.0000000E+000	0.0000000E+000	43.9478	1.03742	46.0522	1.03534e-07
0.0794212	3345.81	3395.16	4766.71	-45.4195	01/10/2024 22:52:31.4829	-0.00321304	8.24357e-07	590.233	299.438	1	14	0.00906052	1.90079e-06	0	2.11118e-05	0.000147253	0.000149425	0.000209788	45.4195	299438	295085	420402	-44.5805	0.0000000E+000	0.0000000E+000	0.0000000E+000	44.5805	0.0000000E+000	0.0000000E+000	0.0000000E+000	-44.5805	0.0000000E+000	0.0000000E+000	0.0000000E+000	-45.4195	0.0000000E+000	0.0000000E+000	0.0000000E+000	45.4195	0.985463	44.5805	1.43227e-07
0.0316672	5140.39	5511.31	7536.46	-46.9944	01/10/2024 23:04:52.1853	-0.00321697	1.34149e-06	911.916	487.675	1	14	0.00905824	1.20192e-06	0	2.19887e-05	9.05028e-05	9.70333e-05	0.000132688	46.9944	487675	454854	666872	-43.0056	0.0000000E+000	0.0000000E+000	0.0000000E+000	43.0056	0.0000000E+000	0.0000000E+000	0.0000000E+000	-43.0056	0.0000000E+000	0.0000000E+000	0.0000000E+000	-46.9944	0.0000000E+000	0.0000000E+000	0.0000000E+000	46.9944	0.932698	43.0056	2.66328e-07
0.0126067	7273.62	9450.98	11925.9	-52.4175	01/10/2024 23:35:51.9327	-0.00322243	7.88304e-07	1335.81	838.911	1	14	0.00905978	7.59674e-07	0	2.34475e-05	5.11411e-05	6.64501e-05	8.38513e-05	52.4175	838911	645639	1.05859e+06	-37.5825	0.0000000E+000	0.0000000E+000	0.0000000E+000	37.5825	0.0000000E+000	0.0000000E+000	0.0000000E+000	-37.5825	0.0000000E+000	0.0000000E+000	0.0000000E+000	-52.4175	0.0000000E+000	0.0000000E+000	0.0000000E+000	52.4175	0.769616	37.5825	4.1175e-07
0.00501541	10257	18874.1	21481.1	-61.4785	01/11/2024 00:53:43.5306	-0.00322578	1.13347e-06	1681.31	1297.98	1	14	0.00905624	4.2159e-07	0	2.54719e-05	2.22283e-05	4.09027e-05	4.65525e-05	61.4785	1.29798e+06	705375	1.47726e+06	-28.5215	0.0000000E+000	0.0000000E+000	0.0000000E+000	28.5215	0.0000000E+000	0.0000000E+000	0.0000000E+000	-28.5215	0.0000000E+000	0.0000000E+000	0.0000000E+000	-61.4785	0.0000000E+000	0.0000000E+000	0.0000000E+000	61.4785	0.543442	28.5215	5.5292e-07
0.00199581	17217	39988.1	43537	-66.7055	01/11/2024 04:09:21.1497	-0.00322796	1.08192e-06	1994.21	1682.34	1	14	0.00905936	2.08084e-07	0	2.87661e-05	9.08323e-06	2.10966e-05	2.29689e-05	66.7055	1.68234e+06	724339	1.83165e+06	-23.2945	0.0000000E+000	0.0000000E+000	0.0000000E+000	23.2945	0.0000000E+000	0.0000000E+000	0.0000000E+000	-23.2945	0.0000000E+000	0.0000000E+000	0.0000000E+000	-66.7055	0.0000000E+000	0.0000000E+000	0.0000000E+000	66.7055	0.430554	23.2945	1.18241e-06
0.00100016	28657.4	69129.6	74834.2	-67.4838	01/11/2024 09:33:01.6881	-0.00323224	9.52589e-07	2301.89	1964.33	1	14	0.00905872	1.21051e-07	0	3.4058e-05	5.11725e-06	1.23442e-05	1.33629e-05	67.4838	1.96433e+06	814304	2.12642e+06	-22.5162	0.0000000E+000	0.0000000E+000	0.0000000E+000	22.5162	0.0000000E+000	0.0000000E+000	0.0000000E+000	-22.5162	0.0000000E+000	0.0000000E+000	0.0000000E+000	-67.4838	0.0000000E+000	0.0000000E+000	0.0000000E+000	67.4838	0.414546	22.5162	2.13931e-06